Folder: Aulas/dados

Note: dados/PHF1.txt
Theta;I
10.0000;22
10.0200;32
10.0400;34
10.0600;34
10.0800;28
10.1000;42
10.1200;50
10.1400;40
10.1600;34
10.1800;28
10.2000;34
10.2200;36
10.2400;32
10.2600;38
10.2800;28
10.3000;28
10.3200;40
10.3400;28
10.3600;48
10.3800;46
10.4000;30
10.4200;38
10.4400;40
10.4600;30
10.4800;26
10.5000;36
10.5200;38
10.5400;26
10.5600;32
10.5800;22
10.6000;40
10.6200;32
10.6400;42
10.6600;34
10.6800;48
10.7000;44
10.7200;26
10.7400;34
10.7600;34
10.7800;28
10.8000;38
10.8200;38
10.8400;46
10.8600;32
10.8800;36
10.9000;36
10.9200;40
10.9400;22
10.9600;40
10.9800;36
11.0000;40
11.0200;38
11.0400;36
11.0600;30
11.0800;36
11.1000;42
11.1200;36
11.1400;26
11.1600;42
11.1800;54
11.2000;34
11.2200;38
11.2400;54
11.2600;32
11.2800;40
11.3000;42
11.3200;38
11.3400;42
11.3600;38
11.3800;34
11.4000;42
11.4200;28
11.4400;36
11.4600;40
11.4800;34
11.5000;40
11.5200;44
11.5400;38
11.5600;40
11.5800;46
11.6000;42
11.6200;32
11.6400;46
11.6600;50
11.6800;38
11.7000;44
11.7200;36
11.7400;42
11.7600;40
11.7800;38
11.8000;40
11.8200;28
11.8400;44
11.8600;50
11.8800;38
11.9000;24
11.9200;38
11.9400;28
11.9600;40
11.9800;48
12.0000;42
12.0200;50
12.0400;44
12.0600;52
12.0800;46
12.1000;40
12.1200;56
12.1400;44
12.1600;52
12.1800;56
12.2000;42
12.2200;42
12.2400;56
12.2600;44
12.2800;46
12.3000;42
12.3200;46
12.3400;44
12.3600;32
12.3800;42
12.4000;46
12.4200;48
12.4400;42
12.4600;46
12.4800;40
12.5000;46
12.5200;44
12.5400;38
12.5600;42
12.5800;34
12.6000;52
12.6200;42
12.6400;50
12.6600;36
12.6800;44
12.7000;40
12.7200;44
12.7400;40
12.7600;42
12.7800;46
12.8000;42
12.8200;44
12.8400;56
12.8600;44
12.8800;32
12.9000;30
12.9200;56
12.9400;46
12.9600;50
12.9800;32
13.0000;42
13.0200;38
13.0400;46
13.0600;44
13.0800;40
13.1000;46
13.1200;58
13.1400;28
13.1600;44
13.1800;42
13.2000;38
13.2200;44
13.2400;34
13.2600;46
13.2800;40
13.3000;42
13.3200;40
13.3400;32
13.3600;34
13.3800;46
13.4000;46
13.4200;40
13.4400;46
13.4600;48
13.4800;46
13.5000;56
13.5200;42
13.5400;46
13.5600;34
13.5800;44
13.6000;38
13.6200;48
13.6400;56
13.6600;44
13.6800;44
13.7000;30
13.7200;44
13.7400;42
13.7600;40
13.7800;48
13.8000;48
13.8200;40
13.8400;34
13.8600;48
13.8800;58
13.9000;42
13.9200;40
13.9400;42
13.9600;46
13.9800;56
14.0000;54
14.0200;60
14.0400;42
14.0600;48
14.0800;42
14.1000;44
14.1200;44
14.1400;42
14.1600;54
14.1800;46
14.2000;52
14.2200;46
14.2400;46
14.2600;56
14.2800;42
14.3000;42
14.3200;44
14.3400;48
14.3600;60
14.3800;44
14.4000;56
14.4200;40
14.4400;48
14.4600;62
14.4800;52
14.5000;54
14.5200;62
14.5400;58
14.5600;66
14.5800;64
14.6000;46
14.6200;54
14.6400;56
14.6600;46
14.6800;34
14.7000;46
14.7200;56
14.7400;54
14.7600;58
14.7800;48
14.8000;66
14.8200;54
14.8400;60
14.8600;62
14.8800;64
14.9000;48
14.9200;42
14.9400;48
14.9600;54
14.

File: DRX.txt
/////////////////////////////////////////////////////////////////////////////////
/// Profile Data Ascii Dump (XRD)                                             ///
/////////////////////////////////////////////////////////////////////////////////

  Group     : Standard
  Data      : Bianca
  File Name : Bianca.RAW

# Profile Datafile
          comment             =
          date & time         = 04-11-19 10:14:46

# Measurement Condition
    X-ray tube
          target              = Cu
          voltage             = 40.0 (kV)
          current             = 20.0 (mA)
    Slits
          divergence slit     = 1.00000 (deg)
          scatter slit        = 1.00000 (deg)
          receiving slit      = 0.30000 (mm)
    Scanning
          drive axis          = Theta-2Theta
          scan range          =    5.000 -   95.000
          scan mode           = Continuous Scan
          scan speed          =   2.0000 (deg/min)
          sampling pitch      =   0.0200 (deg)
          preset time         =   0.60 (sec)

# Data      [ Total No. = 4501 ]
  <2Theta>   <   I   >
     5.0000        96
     5.3200        98
     5.6400        88
     5.9600        92
     6.2800        78
     6.6000        78
     6.9200        98
     7.2400        76
     7.5600        86
     7.8800        94
     8.2000        78
     8.5200       112
     8.8400        90
     9.1600        88
     9.4800        78
     9.8000        98
    10.1200        96
    10.4400        88
    10.7600       108
    11.0800       104
    11.4000       114
    11.7200       120
    12.0400       142
    12.3600       130
    12.6800       154
    13.0000       160
    13.3200       196
    13.6400       270
    13.9600       328
    14.2800       378
    14.6000       370
    14.9200       402
    15.2400       398
    15.5600       392
    15.8800       412
    16.2000       380
    16.5200       362
    16.8400       318
    17.1600       268
    17.4800       238
    17.8000       240
    18.1200       214
    18.4400       232
    18.7600       230
    19.0800       250
    19.4000       274
    19.7200       310
    20.0400       364
    20.3600       388
    20.6800       402
    21.0000       448
    21.3200       546
    21.6400       802
    21.9600       984
    22.2800      1042
    22.6000       958
    22.9200       708
    23.2400       520
    23.5600       378
    23.8800       312
    24.2000       244
    24.5200       242
    24.8400       218
    25.1600       192
    25.4800       198
    25.8000       154
    26.1200       148
    26.4400       148
    26.7600       146
    27.0800       154
    27.4000       146
    27.7200       166
    28.0400       162
    28.3600       166
    28.6800       170
    29.0000       156
    29.3200       152
    29.6400       152
    29.9600       142
    30.2800       158
    30.6000       160
    30.9200       148
    31.2400       134
    31.5600       132
    31.8800       146
    32.2000       116
    32.5200       138
    32.8400       158
    33.1600       160
    33.4800       178
    33.8000       218
    34.1200       228
    34.4400       204
    34.7600       188
    35.0800       164
    35.4000       126
    35.7200       142
    36.0400       126
    36.3600       148
    36.6800       118
    37.0000       138
    37.3200       164
    37.6400       132
    37.9600       152
    38.2800       120
    38.6000       136
    38.9200       142
    39.2400       118
    39.5600       114
    39.8800       132
    40.2000       104
    40.5200       110
    40.8400       126
    41.1600       128
    41.4800       130
    41.8000       130
    42.1200       122
    42.4400       110
    42.7600       112
    43.0800       132
    43.4000       114
    43.7200       198
    44.0400      2406
    44.3600       142
    44.6800       150
    45.0000       112
    45.3200       118
    45.6400       112
    45.9600        88
    46.2800       100
    46.6000       104
    46.9200       110
    47.2400        88
    47.5600        92
    47.8800       100
    48.2000        72
    48.5200        76
    48.8400        84
    49.1600        82
    49.4800        80
    49.8000        70
    50.1200        74
    50.4400        84
    50.7600        80
    51.0800        66
    51.4000        66
    51.7200        62
    52.0400        62
    52.3600        66
    52.6800        40
    53.0000        74
    53.3200        60
    53.6400        64
    53.9600        58
    54.2800        72
    54.6000        50
    54.9200        66
    55.2400        50
    55.5600        46
    55.8800        58
    56.2000        58
    56.5200        50
    56.8400        56
    57.1600        44
    57.4800        52
    57.8000        42
    58.1200        40
    58.4400        34
    58.7600        48
    59.0800        48
    59.4000        52
    59.7200        54
    60.0400        52
    60.3600        42
    60.6800        44
    61.0000        40
    61.3200        46
    61.6400        56
    61.9600        46
    62.2800        44
    62.6000        34
    62.9200        46
    63.2400        38
    63.5600        50
    63.8800        68
    64.2000       184
    64.5200       726
    64.8400        62
    65.1600        44
    65.4800        46
    65.8000        42
    66.1200        36
    66.4400        36
    66.7600        42
    67.0800        32
    67.4000        36
    67.7200        36
    68.0400        32
    68.3600        40
    68.6800        36
    69.0000        40
    69.3200        44
    69.6400        30
    69.9600        34
    70.2800        34
    70.6000        40
    70.9200        28
    71.2400        28
    71.5600        30
    71.8800        36
    72.2000        34
    72.5200        28
    72.8400        42
    73.1600        32
    73.4800        38
    73.8000        36
    74.1200        46
    74.4400        50
    74.7600        40
    75.0800        26
    75.4000        32
    75.7200        38
    76.0400        34
    76.3600        34
    76.6800        40
    77.0000        48
    77.3200       116
    77.6400       258
    77.9600        62
    78.2800        46
    78.6000        30
    78.9200        32
    79.2400        40
    79.5600        38
    79.8800        26
    80.2000        40
    80.5200        30
    80.8400        32
    81.1600        20
    81.4800        32
    81.8000        32
    82.1200        28
    82.4400        40
    82.7600        42
    83.0800        38
    83.4000        26
    83.7200        24
    84.0400        22
    84.3600        28
    84.6800        22
    85.0000        30
    85.3200        30
    85.6400        20
    85.9600        16
    86.2800        20
    86.6000        22
    86.9200        28
    87.2400        24
    87.5600        26
    87.8800        32
    88.2000        30
    88.5200        22
    88.8400        16
    89.1600        22
    89.4800        38
    89.8000        34
    90.1200        24
    90.4400        30
    90.7600        20
    91.0800        26
    91.4000        28
    91.7200        30
    92.0400        24
    92.3600        18
    92.6800        16
    93.0000        30
    93.3200        28
    93.6400        36
    93.9600        12
    94.2800        24
    94.6000        24
    94.9200        20
    95.0000        30